trial_index,subject,age,gender,lextale,rt,valence,condition,practice,acc,ctest
1,1,49,F,100,11276,negative,abstract,no,1,36
2,1,49,F,100,9339,negative,concrete,no,1,36
3,1,49,F,100,7311,positive,concrete,no,1,36
4,1,49,F,100,10982,negative,abstract,no,1,36
5,1,49,F,100,7788,negative,abstract,no,1,36
6,1,49,F,100,14801,positive,abstract,no,1,36
7,1,49,F,100,6707,positive,concrete,no,1,36
8,1,49,F,100,6661,positive,concrete,no,1,36
9,1,49,F,100,7550,negative,abstract,no,1,36
10,1,49,F,100,7098,positive,abstract,no,1,36
11,1,49,F,100,9551,positive,abstract,no,1,36
12,1,49,F,100,6003,negative,concrete,no,1,36
13,1,49,F,100,5189,positive,concrete,no,1,36
14,1,49,F,100,8918,positive,abstract,no,1,36
15,1,49,F,100,12288,negative,concrete,no,1,36
16,1,49,F,100,8561,negative,concrete,no,0,36
17,1,49,F,100,8120,negative,abstract,no,1,36
18,1,49,F,100,7614,negative,concrete,no,1,36
19,1,49,F,100,7741,positive,concrete,no,1,36
20,1,49,F,100,12321,positive,abstract,no,1,36
1,2,55,F,97.5,10071,positive,abstract,no,1,11
2,2,55,F,97.5,7703,positive,abstract,no,0,11
3,2,55,F,97.5,7143,positive,concrete,no,1,11
4,2,55,F,97.5,7511,negative,abstract,no,0,11
5,2,55,F,97.5,5912,positive,abstract,no,0,11
6,2,55,F,97.5,5943,negative,concrete,no,1,11
7,2,55,F,97.5,7631,negative,abstract,no,1,11
8,2,55,F,97.5,6831,negative,abstract,no,0,11
9,2,55,F,97.5,6175,positive,abstract,no,0,11
10,2,55,F,97.5,6182,negative,concrete,no,1,11
11,2,55,F,97.5,5112,positive,abstract,no,0,11
12,2,55,F,97.5,4247,positive,concrete,no,1,11
13,2,55,F,97.5,3831,negative,concrete,no,1,11
14,2,55,F,97.5,6007,negative,abstract,no,0,11
15,2,55,F,97.5,9175,negative,concrete,no,1,11
16,2,55,F,97.5,3983,positive,concrete,no,1,11
17,2,55,F,97.5,4024,positive,concrete,no,1,11
18,2,55,F,97.5,7183,negative,concrete,no,1,11
19,2,55,F,97.5,6223,negative,abstract,no,1,11
20,2,55,F,97.5,3151,positive,concrete,no,1,11
1,3,44,M,82.5,14907,positive,abstract,no,0,31
2,3,44,M,82.5,6986,positive,concrete,no,1,31
3,3,44,M,82.5,12477,positive,abstract,no,1,31
4,3,44,M,82.5,12589,positive,concrete,no,1,31
5,3,44,M,82.5,10232,positive,abstract,no,0,31
7,3,44,M,82.5,7694,negative,abstract,no,1,31
8,3,44,M,82.5,7904,negative,abstract,no,0,31
9,3,44,M,82.5,9626,negative,concrete,no,1,31
10,3,44,M,82.5,5687,negative,abstract,no,1,31
11,3,44,M,82.5,9313,negative,concrete,no,1,31
12,3,44,M,82.5,9044,negative,concrete,no,1,31
13,3,44,M,82.5,10889,positive,concrete,no,1,31
14,3,44,M,82.5,5511,positive,concrete,no,1,31
15,3,44,M,82.5,17770,positive,concrete,no,1,31
16,3,44,M,82.5,5944,negative,abstract,no,1,31
17,3,44,M,82.5,7680,negative,abstract,no,1,31
18,3,44,M,82.5,8768,negative,concrete,no,1,31
19,3,44,M,82.5,7858,positive,abstract,no,0,31
1,4,34,M,100,11290,positive,abstract,no,0,40
3,4,34,M,100,14675,positive,abstract,no,1,40
4,4,34,M,100,9699,negative,concrete,no,1,40
5,4,34,M,100,8663,positive,abstract,no,0,40
6,4,34,M,100,13355,negative,concrete,no,0,40
7,4,34,M,100,9383,positive,abstract,no,1,40
8,4,34,M,100,12155,positive,concrete,no,1,40
9,4,34,M,100,9523,negative,abstract,no,1,40
10,4,34,M,100,10948,negative,concrete,no,1,40
11,4,34,M,100,7403,negative,abstract,no,1,40
12,4,34,M,100,4435,negative,abstract,no,1,40
13,4,34,M,100,12436,positive,concrete,no,0,40
14,4,34,M,100,7963,negative,concrete,no,1,40
15,4,34,M,100,5119,positive,concrete,no,1,40
16,4,34,M,100,4411,positive,concrete,no,1,40
17,4,34,M,100,6775,positive,concrete,no,1,40
18,4,34,M,100,8087,negative,abstract,no,1,40
19,4,34,M,100,6527,negative,concrete,no,1,40
20,4,34,M,100,8511,negative,abstract,no,1,40
1,5,40,M,97.5,16600,positive,abstract,no,1,30
2,5,40,M,97.5,11040,negative,abstract,no,1,30
3,5,40,M,97.5,8183,negative,concrete,no,1,30
4,5,40,M,97.5,9464,negative,concrete,no,1,30
5,5,40,M,97.5,5776,negative,abstract,no,1,30
6,5,40,M,97.5,15280,positive,abstract,no,1,30
7,5,40,M,97.5,8608,negative,abstract,no,1,30
8,5,40,M,97.5,8184,negative,abstract,no,0,30
10,5,40,M,97.5,8016,positive,abstract,no,1,30
11,5,40,M,97.5,4832,negative,abstract,no,1,30
12,5,40,M,97.5,8951,positive,concrete,no,1,30
13,5,40,M,97.5,6575,positive,abstract,no,1,30
14,5,40,M,97.5,11096,negative,concrete,no,1,30
15,5,40,M,97.5,3584,positive,concrete,no,1,30
16,5,40,M,97.5,6120,positive,concrete,no,1,30
17,5,40,M,97.5,7151,positive,concrete,no,1,30
18,5,40,M,97.5,3560,negative,concrete,no,1,30
19,5,40,M,97.5,5928,positive,concrete,no,1,30
20,5,40,M,97.5,3776,negative,concrete,no,1,30
1,6,47,F,97.5,4395,negative,concrete,no,1,31
2,6,47,F,97.5,4942,negative,abstract,no,1,31
3,6,47,F,97.5,5133,positive,abstract,no,0,31
4,6,47,F,97.5,8135,positive,concrete,no,1,31
5,6,47,F,97.5,5347,negative,abstract,no,0,31
6,6,47,F,97.5,8618,negative,concrete,no,1,31
7,6,47,F,97.5,5823,positive,abstract,no,0,31
8,6,47,F,97.5,7516,positive,abstract,no,0,31
9,6,47,F,97.5,6636,positive,concrete,no,1,31
10,6,47,F,97.5,5146,positive,abstract,no,0,31
11,6,47,F,97.5,5531,negative,concrete,no,1,31
12,6,47,F,97.5,9231,negative,abstract,no,0,31
13,6,47,F,97.5,6775,negative,abstract,no,0,31
14,6,47,F,97.5,6899,positive,abstract,no,1,31
15,6,47,F,97.5,8264,negative,concrete,no,1,31
16,6,47,F,97.5,4762,positive,concrete,no,1,31
17,6,47,F,97.5,8662,negative,abstract,no,1,31
18,6,47,F,97.5,5649,positive,concrete,no,1,31
19,6,47,F,97.5,5914,positive,concrete,no,1,31
20,6,47,F,97.5,7946,negative,concrete,no,1,31
1,7,52,F,85,13360,negative,concrete,no,1,35
2,7,52,F,85,7840,positive,abstract,no,0,35
3,7,52,F,85,11800,positive,abstract,no,0,35
4,7,52,F,85,7820,positive,concrete,no,1,35
5,7,52,F,85,9447,positive,concrete,no,1,35
6,7,52,F,85,15751,positive,abstract,no,0,35
7,7,52,F,85,10905,positive,abstract,no,0,35
8,7,52,F,85,8092,negative,concrete,no,1,35
9,7,52,F,85,11349,negative,concrete,no,1,35
10,7,52,F,85,9640,negative,abstract,no,0,35
11,7,52,F,85,13250,positive,concrete,no,1,35
12,7,52,F,85,7438,positive,concrete,no,1,35
13,7,52,F,85,8129,negative,concrete,no,1,35
14,7,52,F,85,9746,positive,abstract,no,0,35
15,7,52,F,85,8068,negative,abstract,no,0,35
16,7,52,F,85,9153,negative,concrete,no,1,35
17,7,52,F,85,11050,positive,concrete,no,1,35
18,7,52,F,85,11146,negative,abstract,no,0,35
19,7,52,F,85,9215,negative,abstract,no,1,35
20,7,52,F,85,10322,negative,abstract,no,1,35
1,8,49,F,92.5,6527,negative,abstract,no,0,33
2,8,49,F,92.5,7264,positive,concrete,no,1,33
3,8,49,F,92.5,6952,negative,concrete,no,1,33
4,8,49,F,92.5,11479,positive,concrete,no,0,33
5,8,49,F,92.5,9576,negative,abstract,no,1,33
6,8,49,F,92.5,10752,positive,abstract,no,0,33
7,8,49,F,92.5,10312,positive,concrete,no,1,33
8,8,49,F,92.5,9071,positive,abstract,no,1,33
9,8,49,F,92.5,9575,negative,concrete,no,1,33
10,8,49,F,92.5,11191,positive,concrete,no,0,33
11,8,49,F,92.5,8104,positive,abstract,no,0,33
12,8,49,F,92.5,8880,negative,concrete,no,1,33
13,8,49,F,92.5,7487,negative,concrete,no,1,33
14,8,49,F,92.5,12153,positive,concrete,no,1,33
15,8,49,F,92.5,8632,negative,abstract,no,1,33
16,8,49,F,92.5,12208,positive,abstract,no,1,33
17,8,49,F,92.5,13800,negative,abstract,no,1,33
18,8,49,F,92.5,16087,negative,concrete,no,1,33
19,8,49,F,92.5,9904,positive,abstract,no,1,33
20,8,49,F,92.5,11176,negative,abstract,no,0,33
1,9,44,M,95,6221,positive,concrete,no,1,33
2,9,44,M,95,9009,negative,abstract,no,1,33
3,9,44,M,95,8045,negative,abstract,no,1,33
4,9,44,M,95,4885,negative,abstract,no,1,33
5,9,44,M,95,5779,positive,concrete,no,1,33
6,9,44,M,95,6369,negative,abstract,no,1,33
7,9,44,M,95,11022,positive,abstract,no,1,33
8,9,44,M,95,10302,positive,abstract,no,0,33
9,9,44,M,95,10294,negative,concrete,no,1,33
10,9,44,M,95,16511,positive,abstract,no,1,33
11,9,44,M,95,16399,positive,abstract,no,1,33
12,9,44,M,95,6590,positive,concrete,no,1,33
13,9,44,M,95,9870,positive,abstract,no,1,33
14,9,44,M,95,16078,positive,concrete,no,1,33
16,9,44,M,95,8069,positive,concrete,no,1,33
17,9,44,M,95,10269,negative,concrete,no,1,33
18,9,44,M,95,8717,negative,abstract,no,1,33
19,9,44,M,95,9936,negative,concrete,no,0,33
20,9,44,M,95,9277,negative,concrete,no,0,33
1,10,52,M,97.5,8384,negative,concrete,no,1,33
2,10,52,M,97.5,10586,negative,concrete,no,1,33
3,10,52,M,97.5,10410,positive,concrete,no,1,33
4,10,52,M,97.5,15574,positive,abstract,no,0,33
5,10,52,M,97.5,11720,negative,concrete,no,1,33
6,10,52,M,97.5,11749,negative,concrete,no,1,33
7,10,52,M,97.5,11873,positive,abstract,no,0,33
8,10,52,M,97.5,11107,negative,concrete,no,1,33
9,10,52,M,97.5,11342,negative,abstract,no,0,33
10,10,52,M,97.5,12598,positive,concrete,no,1,33
11,10,52,M,97.5,16913,positive,concrete,no,1,33
12,10,52,M,97.5,13813,negative,abstract,no,0,33
13,10,52,M,97.5,11704,positive,abstract,no,0,33
15,10,52,M,97.5,8592,positive,abstract,no,0,33
16,10,52,M,97.5,8625,positive,concrete,no,1,33
17,10,52,M,97.5,11055,positive,abstract,no,0,33
18,10,52,M,97.5,8651,negative,abstract,no,0,33
19,10,52,M,97.5,7602,negative,abstract,no,0,33
20,10,52,M,97.5,9250,positive,concrete,no,1,33
1,11,58,F,97.5,8716,negative,abstract,no,1,32
2,11,58,F,97.5,10247,negative,abstract,no,0,32
3,11,58,F,97.5,5595,positive,abstract,no,0,32
4,11,58,F,97.5,4246,negative,concrete,no,1,32
5,11,58,F,97.5,5883,positive,abstract,no,0,32
6,11,58,F,97.5,5153,positive,concrete,no,1,32
7,11,58,F,97.5,3308,negative,concrete,no,1,32
8,11,58,F,97.5,2503,negative,concrete,no,1,32
9,11,58,F,97.5,10326,negative,abstract,no,1,32
10,11,58,F,97.5,7845,negative,abstract,no,1,32
11,11,58,F,97.5,5590,negative,concrete,no,0,32
12,11,58,F,97.5,7784,positive,abstract,no,0,32
13,11,58,F,97.5,7275,positive,concrete,no,1,32
14,11,58,F,97.5,5218,positive,concrete,no,1,32
15,11,58,F,97.5,8636,negative,abstract,no,1,32
16,11,58,F,97.5,13232,positive,abstract,no,0,32
17,11,58,F,97.5,7947,negative,concrete,no,1,32
18,11,58,F,97.5,11415,positive,abstract,no,0,32
19,11,58,F,97.5,5070,positive,concrete,no,1,32
20,11,58,F,97.5,9623,positive,concrete,no,1,32
1,12,22,M,97.5,7363,negative,concrete,no,1,24
2,12,22,M,97.5,3877,negative,concrete,no,1,24
3,12,22,M,97.5,8171,negative,abstract,no,1,24
4,12,22,M,97.5,11808,negative,abstract,no,1,24
5,12,22,M,97.5,7058,positive,concrete,no,1,24
6,12,22,M,97.5,6846,positive,concrete,no,1,24
7,12,22,M,97.5,6882,negative,concrete,no,1,24
8,12,22,M,97.5,13678,positive,abstract,no,1,24
9,12,22,M,97.5,15149,negative,concrete,no,1,24
10,12,22,M,97.5,10881,positive,abstract,no,1,24
11,12,22,M,97.5,14197,negative,abstract,no,1,24
12,12,22,M,97.5,15881,positive,abstract,no,1,24
13,12,22,M,97.5,12132,negative,abstract,no,1,24
14,12,22,M,97.5,12356,positive,concrete,no,1,24
15,12,22,M,97.5,14150,negative,concrete,no,1,24
16,12,22,M,97.5,5944,positive,concrete,no,1,24
17,12,22,M,97.5,11312,positive,abstract,no,0,24
18,12,22,M,97.5,15192,positive,concrete,no,0,24
19,12,22,M,97.5,14215,negative,abstract,no,0,24
1,13,43,M,95,6691,positive,concrete,no,1,33
2,13,43,M,95,8554,negative,abstract,no,0,33
3,13,43,M,95,10255,negative,concrete,no,1,33
4,13,43,M,95,2262,negative,concrete,no,1,33
5,13,43,M,95,4628,positive,concrete,no,1,33
6,13,43,M,95,1922,positive,concrete,no,1,33
7,13,43,M,95,4056,negative,concrete,no,1,33
8,13,43,M,95,3250,positive,concrete,no,1,33
9,13,43,M,95,9834,negative,abstract,no,1,33
10,13,43,M,95,11035,negative,concrete,no,1,33
11,13,43,M,95,13138,positive,abstract,no,0,33
12,13,43,M,95,13049,positive,abstract,no,1,33
14,13,43,M,95,9427,positive,concrete,no,0,33
15,13,43,M,95,10677,positive,abstract,no,1,33
16,13,43,M,95,9913,negative,abstract,no,1,33
17,13,43,M,95,14970,negative,concrete,no,1,33
18,13,43,M,95,7173,negative,abstract,no,0,33
19,13,43,M,95,5505,positive,abstract,no,1,33
20,13,43,M,95,1099,negative,abstract,no,0,33
1,14,43,M,96.25,8996,negative,concrete,no,1,26
2,14,43,M,96.25,6017,positive,concrete,no,1,26
3,14,43,M,96.25,8639,positive,concrete,no,1,26
4,14,43,M,96.25,6876,positive,abstract,no,1,26
5,14,43,M,96.25,9684,negative,abstract,no,1,26
6,14,43,M,96.25,4557,negative,abstract,no,1,26
7,14,43,M,96.25,5713,negative,abstract,no,0,26
8,14,43,M,96.25,5928,negative,concrete,no,0,26
9,14,43,M,96.25,3922,positive,concrete,no,0,26
10,14,43,M,96.25,5650,positive,abstract,no,0,26
11,14,43,M,96.25,4651,positive,concrete,no,0,26
12,14,43,M,96.25,5416,positive,abstract,no,1,26
13,14,43,M,96.25,3253,negative,concrete,no,1,26
14,14,43,M,96.25,4780,negative,abstract,no,1,26
15,14,43,M,96.25,7099,positive,concrete,no,1,26
16,14,43,M,96.25,6204,positive,abstract,no,0,26
17,14,43,M,96.25,6225,negative,abstract,no,1,26
18,14,43,M,96.25,12841,positive,abstract,no,0,26
19,14,43,M,96.25,5804,negative,concrete,no,1,26
20,14,43,M,96.25,5441,negative,concrete,no,1,26
1,15,43,F,87.5,6453,negative,abstract,no,1,39
2,15,43,F,87.5,7052,positive,abstract,no,1,39
3,15,43,F,87.5,8090,positive,abstract,no,1,39
4,15,43,F,87.5,8690,negative,concrete,no,0,39
5,15,43,F,87.5,5972,positive,abstract,no,1,39
6,15,43,F,87.5,7316,negative,abstract,no,1,39
7,15,43,F,87.5,7144,positive,concrete,no,1,39
8,15,43,F,87.5,8063,negative,concrete,no,1,39
9,15,43,F,87.5,7139,negative,abstract,no,1,39
10,15,43,F,87.5,7249,positive,concrete,no,1,39
11,15,43,F,87.5,10961,negative,concrete,no,1,39
12,15,43,F,87.5,7283,positive,concrete,no,1,39
13,15,43,F,87.5,5466,negative,abstract,no,1,39
14,15,43,F,87.5,9495,positive,abstract,no,1,39
15,15,43,F,87.5,8982,positive,abstract,no,1,39
16,15,43,F,87.5,9000,negative,concrete,no,1,39
17,15,43,F,87.5,10531,negative,concrete,no,1,39
18,15,43,F,87.5,10068,positive,concrete,no,1,39
19,15,43,F,87.5,5188,positive,concrete,no,1,39
20,15,43,F,87.5,8492,negative,abstract,no,1,39
1,16,31,F,93.75,3659,positive,concrete,no,1,29
2,16,31,F,93.75,8119,negative,abstract,no,1,29
3,16,31,F,93.75,4338,positive,abstract,no,0,29
4,16,31,F,93.75,13267,positive,abstract,no,1,29
5,16,31,F,93.75,10836,negative,concrete,no,1,29
6,16,31,F,93.75,4494,negative,concrete,no,1,29
7,16,31,F,93.75,7899,positive,concrete,no,1,29
9,16,31,F,93.75,6845,negative,concrete,no,1,29
10,16,31,F,93.75,7660,negative,concrete,no,1,29
11,16,31,F,93.75,4226,negative,abstract,no,0,29
12,16,31,F,93.75,6200,negative,abstract,no,1,29
13,16,31,F,93.75,10703,positive,abstract,no,1,29
14,16,31,F,93.75,6468,positive,concrete,no,1,29
15,16,31,F,93.75,5550,negative,concrete,no,1,29
16,16,31,F,93.75,8899,negative,abstract,no,0,29
17,16,31,F,93.75,10016,positive,concrete,no,1,29
18,16,31,F,93.75,8360,negative,abstract,no,1,29
19,16,31,F,93.75,4435,positive,concrete,no,1,29
20,16,31,F,93.75,7587,positive,abstract,no,0,29
1,17,24,M,96.25,12006,negative,abstract,no,1,32
2,17,24,M,96.25,14399,positive,concrete,no,1,32
3,17,24,M,96.25,13448,negative,abstract,no,1,32
4,17,24,M,96.25,14735,positive,abstract,no,1,32
5,17,24,M,96.25,12022,positive,concrete,no,1,32
8,17,24,M,96.25,12919,positive,concrete,no,1,32
9,17,24,M,96.25,9855,negative,concrete,no,1,32
10,17,24,M,96.25,9432,positive,concrete,no,1,32
11,17,24,M,96.25,7775,positive,abstract,no,1,32
12,17,24,M,96.25,10087,negative,concrete,no,1,32
13,17,24,M,96.25,11783,negative,abstract,no,1,32
14,17,24,M,96.25,8095,positive,concrete,no,1,32
15,17,24,M,96.25,12431,positive,abstract,no,0,32
16,17,24,M,96.25,11775,positive,abstract,no,0,32
17,17,24,M,96.25,8623,negative,abstract,no,1,32
18,17,24,M,96.25,11761,negative,concrete,no,1,32
19,17,24,M,96.25,13305,negative,concrete,no,1,32
20,17,24,M,96.25,12471,negative,concrete,no,1,32
1,18,31,M,92.5,16294,positive,abstract,no,1,38
2,18,31,M,92.5,8718,negative,concrete,no,1,38
3,18,31,M,92.5,10303,positive,abstract,no,0,38
4,18,31,M,92.5,9103,negative,abstract,no,0,38
5,18,31,M,92.5,6908,negative,concrete,no,1,38
6,18,31,M,92.5,17113,positive,abstract,no,1,38
8,18,31,M,92.5,8405,negative,abstract,no,0,38
9,18,31,M,92.5,7636,negative,concrete,no,1,38
10,18,31,M,92.5,5966,positive,concrete,no,1,38
11,18,31,M,92.5,12176,positive,concrete,no,0,38
12,18,31,M,92.5,11246,negative,concrete,no,1,38
13,18,31,M,92.5,11014,negative,abstract,no,1,38
14,18,31,M,92.5,7304,positive,concrete,no,1,38
15,18,31,M,92.5,11799,negative,abstract,no,1,38
16,18,31,M,92.5,5865,positive,concrete,no,1,38
17,18,31,M,92.5,6964,positive,concrete,no,1,38
18,18,31,M,92.5,7320,positive,abstract,no,0,38
19,18,31,M,92.5,10871,negative,concrete,no,1,38
20,18,31,M,92.5,9721,negative,abstract,no,1,38
1,19,39,M,95,11693,negative,abstract,no,0,36
2,19,39,M,95,8899,negative,concrete,no,1,36
3,19,39,M,95,9918,positive,abstract,no,0,36
4,19,39,M,95,8605,positive,abstract,no,0,36
5,19,39,M,95,7940,negative,abstract,no,0,36
6,19,39,M,95,15280,negative,concrete,no,1,36
7,19,39,M,95,7444,positive,concrete,no,1,36
8,19,39,M,95,8095,positive,concrete,no,1,36
9,19,39,M,95,8388,positive,abstract,no,0,36
10,19,39,M,95,7457,negative,concrete,no,1,36
11,19,39,M,95,10288,positive,abstract,no,0,36
12,19,39,M,95,4700,negative,abstract,no,0,36
13,19,39,M,95,8718,positive,abstract,no,0,36
14,19,39,M,95,8474,positive,concrete,no,1,36
15,19,39,M,95,16177,negative,concrete,no,1,36
16,19,39,M,95,9490,negative,abstract,no,0,36
17,19,39,M,95,14413,negative,concrete,no,0,36
19,19,39,M,95,8790,positive,concrete,no,1,36
20,19,39,M,95,7551,negative,abstract,no,0,36
1,20,52,M,95,6983,negative,abstract,no,1,33
2,20,52,M,95,8754,negative,concrete,no,1,33
3,20,52,M,95,10811,negative,abstract,no,1,33
4,20,52,M,95,7869,negative,abstract,no,1,33
5,20,52,M,95,7676,negative,abstract,no,1,33
6,20,52,M,95,10815,negative,concrete,no,1,33
7,20,52,M,95,11261,positive,abstract,no,0,33
8,20,52,M,95,9403,positive,concrete,no,1,33
10,20,52,M,95,7655,positive,concrete,no,1,33
11,20,52,M,95,6066,positive,concrete,no,1,33
12,20,52,M,95,17640,negative,concrete,no,1,33
13,20,52,M,95,8650,negative,abstract,no,1,33
14,20,52,M,95,5098,positive,concrete,no,1,33
15,20,52,M,95,9358,positive,abstract,no,0,33
16,20,52,M,95,7531,negative,concrete,no,1,33
17,20,52,M,95,8404,positive,abstract,no,1,33
18,20,52,M,95,9621,negative,concrete,no,0,33
19,20,52,M,95,6153,positive,abstract,no,1,33
20,20,52,M,95,4766,positive,concrete,no,1,33
1,21,44,M,97.5,14806,positive,abstract,no,0,36
2,21,44,M,97.5,8708,negative,concrete,no,1,36
3,21,44,M,97.5,6029,negative,concrete,no,1,36
4,21,44,M,97.5,6194,negative,concrete,no,1,36
5,21,44,M,97.5,13388,positive,abstract,no,0,36
6,21,44,M,97.5,5598,positive,concrete,no,1,36
7,21,44,M,97.5,13575,negative,abstract,no,0,36
8,21,44,M,97.5,10164,positive,concrete,no,0,36
9,21,44,M,97.5,11259,positive,abstract,no,1,36
10,21,44,M,97.5,13633,negative,abstract,no,1,36
11,21,44,M,97.5,5844,positive,concrete,no,1,36
12,21,44,M,97.5,4159,negative,abstract,no,0,36
13,21,44,M,97.5,3906,negative,concrete,no,1,36
14,21,44,M,97.5,8555,negative,abstract,no,1,36
16,21,44,M,97.5,8018,negative,concrete,no,0,36
17,21,44,M,97.5,6027,positive,concrete,no,1,36
18,21,44,M,97.5,8123,positive,abstract,no,0,36
19,21,44,M,97.5,7433,negative,abstract,no,0,36
20,21,44,M,97.5,4109,positive,concrete,no,1,36
1,22,41,F,96.25,7506,negative,abstract,no,0,35
2,22,41,F,96.25,14587,negative,concrete,no,0,35
3,22,41,F,96.25,11880,negative,concrete,no,1,35
4,22,41,F,96.25,10844,positive,abstract,no,0,35
5,22,41,F,96.25,13578,negative,abstract,no,1,35
6,22,41,F,96.25,13972,negative,abstract,no,0,35
7,22,41,F,96.25,12416,positive,concrete,no,1,35
8,22,41,F,96.25,8731,positive,abstract,no,0,35
9,22,41,F,96.25,12304,negative,abstract,no,1,35
10,22,41,F,96.25,13317,negative,concrete,no,1,35
11,22,41,F,96.25,8870,positive,concrete,no,1,35
12,22,41,F,96.25,10193,positive,abstract,no,0,35
13,22,41,F,96.25,17331,positive,concrete,no,0,35
15,22,41,F,96.25,9009,negative,concrete,no,1,35
16,22,41,F,96.25,9632,positive,concrete,no,1,35
17,22,41,F,96.25,7888,positive,concrete,no,1,35
18,22,41,F,96.25,9286,negative,abstract,no,0,35
19,22,41,F,96.25,14650,positive,abstract,no,1,35
20,22,41,F,96.25,17305,positive,abstract,no,0,35
1,23,33,F,95,16985,positive,abstract,no,1,38
2,23,33,F,95,6905,positive,concrete,no,1,38
3,23,33,F,95,4783,negative,concrete,no,1,38
4,23,33,F,95,12947,positive,concrete,no,1,38
5,23,33,F,95,6933,positive,concrete,no,1,38
6,23,33,F,95,9580,negative,concrete,no,1,38
7,23,33,F,95,6305,negative,abstract,no,0,38
8,23,33,F,95,16224,negative,concrete,no,1,38
9,23,33,F,95,14243,positive,abstract,no,0,38
10,23,33,F,95,10065,negative,concrete,no,1,38
11,23,33,F,95,11870,positive,concrete,no,1,38
12,23,33,F,95,9910,positive,abstract,no,0,38
13,23,33,F,95,7297,negative,abstract,no,1,38
14,23,33,F,95,3315,positive,concrete,no,1,38
15,23,33,F,95,7732,negative,abstract,no,1,38
16,23,33,F,95,4787,negative,abstract,no,1,38
17,23,33,F,95,4641,negative,abstract,no,1,38
18,23,33,F,95,5579,negative,concrete,no,1,38
19,23,33,F,95,16239,positive,abstract,no,0,38
20,23,33,F,95,5828,positive,abstract,no,0,38
1,24,39,M,80,3206,positive,concrete,no,1,41
2,24,39,M,80,5321,negative,concrete,no,1,41
3,24,39,M,80,3882,positive,abstract,no,0,41
4,24,39,M,80,2418,negative,abstract,no,0,41
5,24,39,M,80,3357,negative,abstract,no,0,41
6,24,39,M,80,3964,negative,concrete,no,1,41
7,24,39,M,80,3661,positive,abstract,no,1,41
8,24,39,M,80,3990,positive,abstract,no,0,41
9,24,39,M,80,4154,positive,abstract,no,0,41
10,24,39,M,80,3296,positive,concrete,no,1,41
11,24,39,M,80,2458,positive,concrete,no,1,41
12,24,39,M,80,2208,negative,concrete,no,1,41
13,24,39,M,80,3014,negative,abstract,no,0,41
14,24,39,M,80,3911,negative,concrete,no,1,41
15,24,39,M,80,2594,positive,concrete,no,1,41
16,24,39,M,80,3355,positive,abstract,no,0,41
17,24,39,M,80,2641,negative,abstract,no,0,41
18,24,39,M,80,5083,positive,concrete,no,1,41
19,24,39,M,80,7056,negative,abstract,no,1,41
20,24,39,M,80,4261,negative,concrete,no,1,41
1,25,42,M,97.5,9574,negative,concrete,no,1,37
2,25,42,M,97.5,10187,positive,abstract,no,0,37
3,25,42,M,97.5,6822,negative,concrete,no,1,37
4,25,42,M,97.5,8396,negative,abstract,no,1,37
5,25,42,M,97.5,10202,positive,abstract,no,1,37
6,25,42,M,97.5,8842,positive,abstract,no,1,37
7,25,42,M,97.5,5133,positive,concrete,no,1,37
8,25,42,M,97.5,6992,negative,abstract,no,1,37
9,25,42,M,97.5,7547,negative,concrete,no,1,37
10,25,42,M,97.5,6595,positive,concrete,no,1,37
11,25,42,M,97.5,4580,positive,concrete,no,1,37
12,25,42,M,97.5,4848,positive,concrete,no,1,37
13,25,42,M,97.5,5909,negative,abstract,no,1,37
14,25,42,M,97.5,9397,positive,abstract,no,1,37
15,25,42,M,97.5,6795,negative,abstract,no,1,37
16,25,42,M,97.5,6941,negative,concrete,no,1,37
17,25,42,M,97.5,6008,positive,concrete,no,1,37
18,25,42,M,97.5,7345,negative,concrete,no,1,37
19,25,42,M,97.5,4905,negative,abstract,no,1,37
20,25,42,M,97.5,7251,positive,abstract,no,1,37
1,26,31,M,97.5,7528,negative,abstract,no,1,36
2,26,31,M,97.5,4351,negative,concrete,no,1,36
3,26,31,M,97.5,7210,negative,abstract,no,1,36
4,26,31,M,97.5,8313,negative,abstract,no,1,36
5,26,31,M,97.5,9044,negative,abstract,no,1,36
6,26,31,M,97.5,13007,positive,concrete,no,1,36
7,26,31,M,97.5,14693,positive,abstract,no,1,36
8,26,31,M,97.5,16361,negative,concrete,no,1,36
9,26,31,M,97.5,10958,negative,concrete,no,1,36
10,26,31,M,97.5,6839,negative,abstract,no,1,36
11,26,31,M,97.5,7904,positive,concrete,no,0,36
12,26,31,M,97.5,8470,negative,concrete,no,1,36
13,26,31,M,97.5,6468,positive,concrete,no,1,36
14,26,31,M,97.5,13134,positive,abstract,no,1,36
15,26,31,M,97.5,10263,positive,abstract,no,1,36
16,26,31,M,97.5,8723,positive,concrete,no,1,36
17,26,31,M,97.5,14084,positive,abstract,no,0,36
18,26,31,M,97.5,9355,positive,abstract,no,0,36
19,26,31,M,97.5,14100,negative,concrete,no,1,36
20,26,31,M,97.5,10693,positive,concrete,no,1,36
1,27,29,M,98.75,12784,negative,concrete,no,1,36
2,27,29,M,98.75,17876,negative,abstract,no,1,36
3,27,29,M,98.75,6958,positive,concrete,no,1,36
4,27,29,M,98.75,9379,positive,concrete,no,1,36
5,27,29,M,98.75,11324,positive,abstract,no,1,36
6,27,29,M,98.75,16413,positive,abstract,no,0,36
7,27,29,M,98.75,8075,positive,concrete,no,1,36
9,27,29,M,98.75,9620,negative,concrete,no,1,36
10,27,29,M,98.75,6251,negative,abstract,no,0,36
11,27,29,M,98.75,11460,positive,concrete,no,1,36
12,27,29,M,98.75,9413,negative,abstract,no,0,36
13,27,29,M,98.75,13717,negative,concrete,no,1,36
14,27,29,M,98.75,8798,negative,abstract,no,1,36
15,27,29,M,98.75,10979,positive,abstract,no,0,36
17,27,29,M,98.75,9739,positive,abstract,no,0,36
18,27,29,M,98.75,13124,negative,abstract,no,0,36
19,27,29,M,98.75,12912,negative,concrete,no,1,36
20,27,29,M,98.75,11053,positive,concrete,no,1,36
1,28,43,M,100,4842,negative,concrete,no,1,36
2,28,43,M,100,5842,positive,concrete,no,1,36
3,28,43,M,100,9523,negative,concrete,no,1,36
4,28,43,M,100,8743,positive,concrete,no,1,36
5,28,43,M,100,6485,negative,concrete,no,1,36
6,28,43,M,100,6715,negative,concrete,no,1,36
7,28,43,M,100,13233,positive,concrete,no,0,36
8,28,43,M,100,12278,positive,abstract,no,0,36
9,28,43,M,100,11758,positive,concrete,no,1,36
10,28,43,M,100,8117,negative,abstract,no,1,36
11,28,43,M,100,7110,positive,concrete,no,1,36
12,28,43,M,100,10463,positive,abstract,no,0,36
14,28,43,M,100,16951,negative,abstract,no,1,36
15,28,43,M,100,11201,negative,concrete,no,1,36
16,28,43,M,100,12151,positive,abstract,no,0,36
17,28,43,M,100,10536,positive,abstract,no,0,36
18,28,43,M,100,10404,negative,abstract,no,1,36
19,28,43,M,100,9879,negative,abstract,no,1,36
20,28,43,M,100,7991,negative,abstract,no,1,36
1,29,64,F,100,11305,positive,abstract,no,0,42
2,29,64,F,100,14151,negative,abstract,no,0,42
3,29,64,F,100,8173,positive,concrete,no,1,42
4,29,64,F,100,7636,positive,concrete,no,1,42
5,29,64,F,100,10815,negative,concrete,no,1,42
6,29,64,F,100,8401,negative,concrete,no,1,42
7,29,64,F,100,13008,negative,abstract,no,1,42
8,29,64,F,100,16128,positive,abstract,no,0,42
9,29,64,F,100,16521,positive,abstract,no,1,42
10,29,64,F,100,13693,negative,concrete,no,1,42
11,29,64,F,100,17098,positive,abstract,no,0,42
12,29,64,F,100,10888,negative,abstract,no,0,42
13,29,64,F,100,9562,negative,concrete,no,1,42
14,29,64,F,100,12590,negative,concrete,no,1,42
15,29,64,F,100,12319,positive,abstract,no,1,42
16,29,64,F,100,10546,positive,concrete,no,1,42
17,29,64,F,100,9073,positive,concrete,no,1,42
18,29,64,F,100,6178,positive,concrete,no,1,42
20,29,64,F,100,8896,negative,abstract,no,1,42
1,30,19,PNA,97.5,4402,negative,concrete,no,1,37
2,30,19,PNA,97.5,5765,negative,abstract,no,1,37
3,30,19,PNA,97.5,8831,positive,concrete,no,1,37
4,30,19,PNA,97.5,3970,negative,concrete,no,1,37
5,30,19,PNA,97.5,5858,negative,abstract,no,1,37
6,30,19,PNA,97.5,4490,negative,abstract,no,1,37
7,30,19,PNA,97.5,9751,positive,abstract,no,1,37
8,30,19,PNA,97.5,6469,negative,abstract,no,1,37
9,30,19,PNA,97.5,5063,positive,concrete,no,1,37
10,30,19,PNA,97.5,6577,positive,abstract,no,1,37
11,30,19,PNA,97.5,5332,positive,abstract,no,0,37
12,30,19,PNA,97.5,14499,negative,abstract,no,1,37
13,30,19,PNA,97.5,866,positive,concrete,no,0,37
14,30,19,PNA,97.5,5341,positive,concrete,no,1,37
15,30,19,PNA,97.5,4528,negative,concrete,no,1,37
16,30,19,PNA,97.5,3423,negative,concrete,no,0,37
17,30,19,PNA,97.5,3090,positive,concrete,no,1,37
18,30,19,PNA,97.5,3526,positive,abstract,no,1,37
19,30,19,PNA,97.5,6765,negative,concrete,no,1,37
20,30,19,PNA,97.5,3032,positive,abstract,no,0,37
1,31,21,F,100,5974,positive,abstract,no,0,37
2,31,21,F,100,5249,positive,concrete,no,1,37
3,31,21,F,100,5313,negative,abstract,no,1,37
4,31,21,F,100,7390,negative,concrete,no,1,37
5,31,21,F,100,6062,negative,concrete,no,1,37
6,31,21,F,100,8884,positive,concrete,no,1,37
7,31,21,F,100,4723,positive,concrete,no,1,37
8,31,21,F,100,6995,negative,abstract,no,0,37
9,31,21,F,100,7980,positive,abstract,no,0,37
10,31,21,F,100,7608,positive,abstract,no,0,37
11,31,21,F,100,8040,positive,concrete,no,0,37
12,31,21,F,100,6775,positive,concrete,no,1,37
13,31,21,F,100,5033,negative,abstract,no,1,37
14,31,21,F,100,5356,negative,abstract,no,1,37
15,31,21,F,100,6529,positive,abstract,no,0,37
16,31,21,F,100,7518,positive,abstract,no,1,37
17,31,21,F,100,6348,negative,abstract,no,1,37
18,31,21,F,100,11023,negative,concrete,no,0,37
19,31,21,F,100,7812,negative,concrete,no,1,37
20,31,21,F,100,7120,negative,concrete,no,0,37
1,32,22,M,97.5,8695,positive,abstract,no,0,44
2,32,22,M,97.5,6375,negative,concrete,no,1,44
3,32,22,M,97.5,9284,negative,abstract,no,1,44
4,32,22,M,97.5,8125,positive,concrete,no,1,44
5,32,22,M,97.5,9490,negative,abstract,no,1,44
6,32,22,M,97.5,9236,positive,concrete,no,1,44
7,32,22,M,97.5,13963,positive,abstract,no,0,44
8,32,22,M,97.5,10693,negative,concrete,no,1,44
9,32,22,M,97.5,17237,positive,abstract,no,0,44
10,32,22,M,97.5,13815,negative,concrete,no,1,44
11,32,22,M,97.5,15137,positive,abstract,no,0,44
12,32,22,M,97.5,16649,positive,concrete,no,0,44
13,32,22,M,97.5,12890,negative,abstract,no,1,44
14,32,22,M,97.5,17270,negative,abstract,no,0,44
15,32,22,M,97.5,6461,positive,concrete,no,1,44
16,32,22,M,97.5,16576,positive,abstract,no,0,44
17,32,22,M,97.5,14080,negative,concrete,no,1,44
18,32,22,M,97.5,7878,negative,abstract,no,0,44
19,32,22,M,97.5,8268,negative,concrete,no,1,44
20,32,22,M,97.5,8142,positive,concrete,no,1,44
1,33,50,F,85,9081,negative,concrete,no,1,24
2,33,50,F,85,10262,negative,abstract,no,0,24
3,33,50,F,85,13195,positive,abstract,no,0,24
4,33,50,F,85,7655,negative,concrete,no,1,24
5,33,50,F,85,6894,positive,concrete,no,1,24
6,33,50,F,85,10044,negative,concrete,no,1,24
7,33,50,F,85,11403,negative,concrete,no,1,24
8,33,50,F,85,9604,positive,concrete,no,1,24
9,33,50,F,85,10662,positive,abstract,no,0,24
10,33,50,F,85,9693,positive,abstract,no,1,24
11,33,50,F,85,11503,negative,abstract,no,0,24
12,33,50,F,85,12453,negative,abstract,no,0,24
13,33,50,F,85,13912,negative,abstract,no,1,24
14,33,50,F,85,9912,negative,abstract,no,0,24
15,33,50,F,85,7161,positive,concrete,no,1,24
16,33,50,F,85,8105,negative,concrete,no,1,24
17,33,50,F,85,8066,positive,abstract,no,0,24
18,33,50,F,85,6894,positive,concrete,no,1,24
19,33,50,F,85,6513,positive,concrete,no,1,24
20,33,50,F,85,7350,positive,abstract,no,0,24
1,34,46,M,100,5046,positive,abstract,no,0,37
2,34,46,M,100,5287,positive,abstract,no,0,37
3,34,46,M,100,6087,negative,abstract,no,1,37
4,34,46,M,100,9631,negative,abstract,no,1,37
5,34,46,M,100,5974,negative,abstract,no,1,37
6,34,46,M,100,10136,negative,abstract,no,0,37
7,34,46,M,100,7934,positive,concrete,no,1,37
8,34,46,M,100,5407,negative,concrete,no,1,37
9,34,46,M,100,4079,positive,concrete,no,1,37
10,34,46,M,100,5584,positive,concrete,no,1,37
11,34,46,M,100,6031,negative,abstract,no,1,37
12,34,46,M,100,4663,negative,concrete,no,1,37
13,34,46,M,100,7063,positive,abstract,no,1,37
14,34,46,M,100,4072,positive,concrete,no,1,37
15,34,46,M,100,6518,negative,concrete,no,1,37
16,34,46,M,100,10830,positive,abstract,no,1,37
17,34,46,M,100,6439,negative,concrete,no,1,37
18,34,46,M,100,5063,positive,concrete,no,1,37
19,34,46,M,100,4919,negative,concrete,no,1,37
20,34,46,M,100,4433,positive,abstract,no,1,37
1,35,21,F,93.75,2209,negative,abstract,no,0,23
2,35,21,F,93.75,2722,negative,abstract,no,0,23
3,35,21,F,93.75,1264,positive,concrete,no,1,23
4,35,21,F,93.75,847,negative,concrete,no,1,23
5,35,21,F,93.75,958,negative,abstract,no,0,23
6,35,21,F,93.75,819,positive,concrete,no,1,23
7,35,21,F,93.75,956,negative,concrete,no,1,23
8,35,21,F,93.75,910,positive,concrete,no,1,23
9,35,21,F,93.75,1205,negative,concrete,no,1,23
10,35,21,F,93.75,1158,positive,abstract,no,0,23
11,35,21,F,93.75,1571,positive,abstract,no,0,23
12,35,21,F,93.75,1020,negative,concrete,no,0,23
13,35,21,F,93.75,2954,positive,abstract,no,0,23
14,35,21,F,93.75,893,positive,concrete,no,1,23
15,35,21,F,93.75,1240,positive,concrete,no,1,23
16,35,21,F,93.75,892,positive,abstract,no,0,23
17,35,21,F,93.75,1030,negative,abstract,no,0,23
18,35,21,F,93.75,774,negative,concrete,no,1,23
19,35,21,F,93.75,1106,positive,abstract,no,0,23
20,35,21,F,93.75,1154,negative,abstract,no,0,23
1,36,22,M,85,6631,positive,concrete,no,1,33
2,36,22,M,85,4879,negative,concrete,no,1,33
3,36,22,M,85,3872,positive,abstract,no,0,33
4,36,22,M,85,6408,negative,abstract,no,1,33
5,36,22,M,85,4920,negative,abstract,no,1,33
6,36,22,M,85,3552,negative,abstract,no,0,33
7,36,22,M,85,7208,positive,concrete,no,1,33
8,36,22,M,85,6720,positive,concrete,no,1,33
9,36,22,M,85,3816,positive,abstract,no,0,33
10,36,22,M,85,8664,positive,abstract,no,0,33
11,36,22,M,85,6328,negative,concrete,no,1,33
12,36,22,M,85,3984,negative,concrete,no,1,33
13,36,22,M,85,6840,positive,concrete,no,1,33
14,36,22,M,85,2624,negative,abstract,no,1,33
15,36,22,M,85,5776,positive,abstract,no,1,33
16,36,22,M,85,9096,negative,concrete,no,0,33
17,36,22,M,85,6816,negative,concrete,no,1,33
18,36,22,M,85,13280,negative,abstract,no,0,33
19,36,22,M,85,6735,positive,abstract,no,0,33
20,36,22,M,85,5616,positive,concrete,no,1,33
1,37,21,F,96.25,5309,positive,concrete,no,1,43
2,37,21,F,96.25,4872,positive,abstract,no,0,43
3,37,21,F,96.25,4145,positive,concrete,no,1,43
4,37,21,F,96.25,3720,negative,abstract,no,0,43
5,37,21,F,96.25,5366,negative,abstract,no,0,43
6,37,21,F,96.25,5465,negative,concrete,no,1,43
7,37,21,F,96.25,3284,negative,concrete,no,1,43
8,37,21,F,96.25,3274,negative,abstract,no,0,43
9,37,21,F,96.25,2702,negative,concrete,no,1,43
10,37,21,F,96.25,8783,positive,concrete,no,0,43
11,37,21,F,96.25,4371,positive,abstract,no,0,43
12,37,21,F,96.25,5306,negative,concrete,no,1,43
13,37,21,F,96.25,6424,negative,concrete,no,1,43
14,37,21,F,96.25,5168,positive,concrete,no,1,43
15,37,21,F,96.25,5152,negative,abstract,no,1,43
16,37,21,F,96.25,6868,negative,abstract,no,1,43
17,37,21,F,96.25,5226,positive,abstract,no,0,43
18,37,21,F,96.25,5859,positive,abstract,no,0,43
19,37,21,F,96.25,10268,positive,abstract,no,0,43
20,37,21,F,96.25,5698,positive,concrete,no,1,43
1,38,25,F,88.75,7446,negative,concrete,no,1,32
2,38,25,F,88.75,5855,positive,concrete,no,1,32
3,38,25,F,88.75,7715,negative,abstract,no,1,32
4,38,25,F,88.75,4775,positive,concrete,no,1,32
5,38,25,F,88.75,11675,positive,concrete,no,0,32
6,38,25,F,88.75,14457,negative,abstract,no,0,32
7,38,25,F,88.75,4978,negative,abstract,no,0,32
8,38,25,F,88.75,16489,negative,abstract,no,0,32
9,38,25,F,88.75,6351,negative,abstract,no,1,32
10,38,25,F,88.75,7764,positive,abstract,no,0,32
11,38,25,F,88.75,13327,positive,abstract,no,0,32
12,38,25,F,88.75,11341,positive,abstract,no,0,32
13,38,25,F,88.75,9692,negative,concrete,no,1,32
14,38,25,F,88.75,10434,positive,abstract,no,0,32
15,38,25,F,88.75,5914,negative,concrete,no,1,32
16,38,25,F,88.75,8958,positive,concrete,no,1,32
17,38,25,F,88.75,5840,negative,concrete,no,1,32
18,38,25,F,88.75,5506,negative,concrete,no,1,32
19,38,25,F,88.75,2640,positive,concrete,no,1,32
20,38,25,F,88.75,1442,positive,abstract,no,0,32
1,39,21,F,100,1797,positive,abstract,no,0,29
2,39,21,F,100,1142,positive,abstract,no,0,29
3,39,21,F,100,1717,negative,abstract,no,0,29
4,39,21,F,100,1345,positive,abstract,no,0,29
5,39,21,F,100,3482,negative,concrete,no,1,29
6,39,21,F,100,1545,positive,abstract,no,0,29
7,39,21,F,100,2869,positive,concrete,no,1,29
8,39,21,F,100,6057,negative,abstract,no,0,29
9,39,21,F,100,4094,positive,concrete,no,1,29
10,39,21,F,100,2557,negative,concrete,no,1,29
11,39,21,F,100,1867,negative,concrete,no,1,29
12,39,21,F,100,2327,negative,concrete,no,1,29
13,39,21,F,100,1397,positive,abstract,no,0,29
14,39,21,F,100,2379,negative,abstract,no,0,29
15,39,21,F,100,2014,negative,concrete,no,1,29
16,39,21,F,100,2864,positive,concrete,no,1,29
17,39,21,F,100,2540,positive,concrete,no,1,29
18,39,21,F,100,7517,negative,abstract,no,1,29
19,39,21,F,100,3328,negative,abstract,no,0,29
20,39,21,F,100,2415,positive,concrete,no,1,29
1,40,62,F,97.5,15278,negative,abstract,no,0,24
2,40,62,F,97.5,12529,positive,concrete,no,0,24
3,40,62,F,97.5,7531,positive,concrete,no,1,24
4,40,62,F,97.5,8997,positive,abstract,no,0,24
5,40,62,F,97.5,9338,negative,concrete,no,1,24
6,40,62,F,97.5,11240,negative,concrete,no,1,24
7,40,62,F,97.5,11725,negative,abstract,no,0,24
8,40,62,F,97.5,9058,positive,concrete,no,1,24
9,40,62,F,97.5,7890,negative,abstract,no,0,24
10,40,62,F,97.5,7508,negative,concrete,no,1,24
11,40,62,F,97.5,9379,negative,concrete,no,1,24
12,40,62,F,97.5,7461,positive,abstract,no,0,24
13,40,62,F,97.5,6376,negative,abstract,no,0,24
14,40,62,F,97.5,5989,positive,concrete,no,1,24
15,40,62,F,97.5,7395,positive,concrete,no,1,24
16,40,62,F,97.5,6491,negative,abstract,no,1,24
17,40,62,F,97.5,8998,negative,concrete,no,0,24
18,40,62,F,97.5,6549,positive,abstract,no,0,24
19,40,62,F,97.5,7429,positive,abstract,no,0,24
20,40,62,F,97.5,6666,positive,abstract,no,0,24
1,41,22,F,98.75,5143,negative,concrete,no,1,29
2,41,22,F,98.75,6749,negative,abstract,no,1,29
3,41,22,F,98.75,9709,positive,concrete,no,0,29
4,41,22,F,98.75,7035,negative,concrete,no,1,29
5,41,22,F,98.75,6899,negative,concrete,no,1,29
6,41,22,F,98.75,11691,positive,abstract,no,1,29
7,41,22,F,98.75,6695,negative,abstract,no,1,29
8,41,22,F,98.75,14117,negative,abstract,no,1,29
9,41,22,F,98.75,5431,positive,concrete,no,1,29
10,41,22,F,98.75,9323,positive,concrete,no,1,29
11,41,22,F,98.75,4739,negative,abstract,no,1,29
12,41,22,F,98.75,8493,positive,concrete,no,1,29
13,41,22,F,98.75,9462,positive,abstract,no,0,29
14,41,22,F,98.75,6610,positive,concrete,no,1,29
15,41,22,F,98.75,6866,negative,concrete,no,1,29
16,41,22,F,98.75,8888,positive,abstract,no,0,29
17,41,22,F,98.75,9369,negative,abstract,no,1,29
18,41,22,F,98.75,11509,positive,abstract,no,1,29
19,41,22,F,98.75,9224,positive,abstract,no,1,29
20,41,22,F,98.75,5460,negative,concrete,no,1,29
1,42,56,F,87.5,7688,positive,concrete,no,1,32
2,42,56,F,87.5,6467,positive,abstract,no,0,32
3,42,56,F,87.5,3597,negative,abstract,no,0,32
4,42,56,F,87.5,7652,positive,abstract,no,0,32
5,42,56,F,87.5,5677,negative,concrete,no,1,32
6,42,56,F,87.5,5114,negative,abstract,no,0,32
7,42,56,F,87.5,6843,positive,abstract,no,0,32
8,42,56,F,87.5,7290,positive,abstract,no,0,32
9,42,56,F,87.5,3311,negative,abstract,no,0,32
10,42,56,F,87.5,6250,positive,concrete,no,1,32
11,42,56,F,87.5,7899,negative,abstract,no,1,32
12,42,56,F,87.5,5484,positive,concrete,no,1,32
13,42,56,F,87.5,5879,positive,concrete,no,1,32
14,42,56,F,87.5,6211,negative,concrete,no,1,32
15,42,56,F,87.5,11696,negative,abstract,no,0,32
16,42,56,F,87.5,12591,positive,abstract,no,0,32
17,42,56,F,87.5,7490,negative,concrete,no,1,32
18,42,56,F,87.5,4661,negative,concrete,no,1,32
19,42,56,F,87.5,2881,positive,concrete,no,1,32
20,42,56,F,87.5,1568,negative,concrete,no,1,32
1,43,48,F,96.25,6265,positive,abstract,no,0,28
2,43,48,F,96.25,6626,positive,abstract,no,0,28
3,43,48,F,96.25,6704,positive,abstract,no,0,28
4,43,48,F,96.25,6930,negative,abstract,no,1,28
5,43,48,F,96.25,4650,negative,concrete,no,1,28
6,43,48,F,96.25,5339,negative,concrete,no,1,28
7,43,48,F,96.25,5152,positive,concrete,no,1,28
8,43,48,F,96.25,5354,negative,abstract,no,0,28
9,43,48,F,96.25,5215,negative,abstract,no,0,28
10,43,48,F,96.25,4333,positive,concrete,no,1,28
11,43,48,F,96.25,4717,negative,concrete,no,1,28
12,43,48,F,96.25,5201,negative,concrete,no,1,28
13,43,48,F,96.25,4777,positive,abstract,no,0,28
14,43,48,F,96.25,5914,positive,abstract,no,0,28
15,43,48,F,96.25,5094,negative,concrete,no,1,28
16,43,48,F,96.25,3120,positive,concrete,no,1,28
17,43,48,F,96.25,4954,negative,abstract,no,1,28
18,43,48,F,96.25,6541,negative,abstract,no,1,28
19,43,48,F,96.25,6886,positive,concrete,no,0,28
20,43,48,F,96.25,5280,positive,concrete,no,1,28
1,44,36,F,82.5,6527,negative,concrete,no,1,32
2,44,36,F,82.5,2557,negative,abstract,no,0,32
3,44,36,F,82.5,7432,positive,concrete,no,1,32
4,44,36,F,82.5,1749,positive,abstract,no,0,32
5,44,36,F,82.5,13958,negative,abstract,no,0,32
6,44,36,F,82.5,9559,positive,concrete,no,1,32
7,44,36,F,82.5,10831,positive,abstract,no,0,32
8,44,36,F,82.5,2414,positive,abstract,no,0,32
10,44,36,F,82.5,5734,positive,concrete,no,1,32
11,44,36,F,82.5,2071,negative,concrete,no,1,32
12,44,36,F,82.5,2390,positive,abstract,no,0,32
13,44,36,F,82.5,2239,negative,concrete,no,1,32
14,44,36,F,82.5,1749,negative,abstract,no,0,32
15,44,36,F,82.5,2862,negative,abstract,no,0,32
16,44,36,F,82.5,2720,negative,concrete,no,1,32
17,44,36,F,82.5,2350,negative,concrete,no,1,32
18,44,36,F,82.5,1774,positive,abstract,no,0,32
19,44,36,F,82.5,3440,negative,abstract,no,0,32
20,44,36,F,82.5,1863,positive,concrete,no,1,32
1,45,22,F,75,9450,negative,concrete,no,1,25
2,45,22,F,75,7023,positive,concrete,no,1,25
3,45,22,F,75,10689,positive,concrete,no,1,25
4,45,22,F,75,6687,negative,abstract,no,0,25
5,45,22,F,75,4452,positive,concrete,no,1,25
6,45,22,F,75,10859,positive,abstract,no,0,25
7,45,22,F,75,9009,positive,abstract,no,1,25
8,45,22,F,75,7013,negative,abstract,no,0,25
9,45,22,F,75,8021,positive,abstract,no,1,25
10,45,22,F,75,14019,negative,abstract,no,1,25
11,45,22,F,75,8991,negative,concrete,no,1,25
12,45,22,F,75,7143,positive,concrete,no,1,25
13,45,22,F,75,8389,negative,concrete,no,1,25
14,45,22,F,75,6690,positive,concrete,no,1,25
15,45,22,F,75,9316,negative,abstract,no,0,25
16,45,22,F,75,12249,positive,abstract,no,1,25
17,45,22,F,75,9159,negative,concrete,no,1,25
18,45,22,F,75,9489,negative,abstract,no,0,25
19,45,22,F,75,14899,negative,concrete,no,1,25
1,46,21,M,70,2513,negative,concrete,no,0,26
2,46,21,M,70,2513,negative,abstract,no,1,26
3,46,21,M,70,3864,negative,abstract,no,1,26
4,46,21,M,70,4384,negative,abstract,no,0,26
5,46,21,M,70,5472,positive,concrete,no,1,26
6,46,21,M,70,5017,negative,concrete,no,0,26
7,46,21,M,70,4640,positive,abstract,no,0,26
8,46,21,M,70,4200,positive,abstract,no,1,26
9,46,21,M,70,8819,negative,abstract,no,1,26
10,46,21,M,70,6130,negative,abstract,no,0,26
11,46,21,M,70,5051,positive,concrete,no,1,26
12,46,21,M,70,2800,positive,abstract,no,0,26
13,46,21,M,70,6528,positive,concrete,no,1,26
14,46,21,M,70,7531,positive,concrete,no,0,26
15,46,21,M,70,3504,negative,concrete,no,1,26
16,46,21,M,70,2288,positive,abstract,no,0,26
17,46,21,M,70,3937,positive,concrete,no,1,26
18,46,21,M,70,3801,negative,concrete,no,1,26
19,46,21,M,70,1986,positive,abstract,no,0,26
20,46,21,M,70,5015,negative,concrete,no,1,26
1,47,23,F,96.25,8903,positive,abstract,no,0,34
2,47,23,F,96.25,5592,positive,concrete,no,1,34
3,47,23,F,96.25,9891,positive,abstract,no,0,34
4,47,23,F,96.25,4990,negative,abstract,no,0,34
5,47,23,F,96.25,9480,negative,abstract,no,1,34
6,47,23,F,96.25,5521,positive,abstract,no,0,34
7,47,23,F,96.25,10192,negative,concrete,no,1,34
8,47,23,F,96.25,6564,positive,concrete,no,1,34
9,47,23,F,96.25,6366,negative,concrete,no,1,34
10,47,23,F,96.25,10425,positive,concrete,no,0,34
11,47,23,F,96.25,12918,negative,concrete,no,0,34
12,47,23,F,96.25,8088,positive,abstract,no,0,34
13,47,23,F,96.25,8106,positive,concrete,no,1,34
14,47,23,F,96.25,9532,positive,abstract,no,0,34
15,47,23,F,96.25,8557,negative,abstract,no,1,34
16,47,23,F,96.25,5477,negative,concrete,no,1,34
17,47,23,F,96.25,5713,positive,concrete,no,1,34
18,47,23,F,96.25,13047,negative,abstract,no,1,34
19,47,23,F,96.25,8578,negative,concrete,no,1,34
20,47,23,F,96.25,7531,negative,abstract,no,1,34
1,48,36,M,92.5,7784,negative,abstract,no,1,40
2,48,36,M,92.5,8771,negative,concrete,no,1,40
3,48,36,M,92.5,6570,positive,concrete,no,1,40
4,48,36,M,92.5,8076,negative,abstract,no,0,40
5,48,36,M,92.5,10726,negative,abstract,no,1,40
6,48,36,M,92.5,10718,negative,abstract,no,1,40
7,48,36,M,92.5,7764,positive,concrete,no,1,40
8,48,36,M,92.5,9187,negative,concrete,no,1,40
9,48,36,M,92.5,14585,negative,concrete,no,1,40
10,48,36,M,92.5,9393,negative,concrete,no,1,40
11,48,36,M,92.5,14976,positive,abstract,no,1,40
12,48,36,M,92.5,10888,positive,abstract,no,0,40
13,48,36,M,92.5,17518,positive,abstract,no,0,40
14,48,36,M,92.5,14075,negative,abstract,no,0,40
15,48,36,M,92.5,12350,positive,abstract,no,0,40
16,48,36,M,92.5,17739,positive,concrete,no,1,40
17,48,36,M,92.5,7988,positive,concrete,no,1,40
18,48,36,M,92.5,15951,positive,abstract,no,0,40
19,48,36,M,92.5,7383,negative,concrete,no,1,40
20,48,36,M,92.5,9659,positive,concrete,no,1,40
1,49,66,M,100,6129,negative,abstract,no,0,40
2,49,66,M,100,8827,positive,abstract,no,0,40
3,49,66,M,100,9574,positive,abstract,no,0,40
4,49,66,M,100,7146,positive,concrete,no,1,40
5,49,66,M,100,10167,negative,abstract,no,1,40
6,49,66,M,100,7098,negative,abstract,no,1,40
7,49,66,M,100,10674,negative,abstract,no,0,40
8,49,66,M,100,7949,positive,abstract,no,0,40
9,49,66,M,100,9504,negative,concrete,no,1,40
10,49,66,M,100,7655,positive,concrete,no,1,40
11,49,66,M,100,10752,negative,concrete,no,1,40
12,49,66,M,100,8288,negative,concrete,no,1,40
13,49,66,M,100,9175,positive,abstract,no,0,40
14,49,66,M,100,9975,negative,concrete,no,1,40
15,49,66,M,100,6439,positive,concrete,no,1,40
16,49,66,M,100,7487,negative,abstract,no,1,40
17,49,66,M,100,11304,negative,concrete,no,1,40
18,49,66,M,100,7815,positive,abstract,no,0,40
19,49,66,M,100,5687,positive,concrete,no,1,40
20,49,66,M,100,10464,positive,concrete,no,1,40
1,50,73,F,100,6292,positive,concrete,no,1,42
2,50,73,F,100,11986,negative,concrete,no,1,42
3,50,73,F,100,10229,positive,concrete,no,1,42
4,50,73,F,100,8234,positive,abstract,no,0,42
5,50,73,F,100,8697,negative,abstract,no,0,42
6,50,73,F,100,7329,positive,concrete,no,0,42
7,50,73,F,100,13433,negative,abstract,no,0,42
8,50,73,F,100,6485,negative,concrete,no,1,42
9,50,73,F,100,8474,negative,concrete,no,1,42
10,50,73,F,100,14080,negative,abstract,no,1,42
11,50,73,F,100,9086,positive,abstract,no,0,42
12,50,73,F,100,9298,negative,abstract,no,1,42
13,50,73,F,100,8853,positive,abstract,no,0,42
14,50,73,F,100,6050,positive,concrete,no,1,42
15,50,73,F,100,8672,negative,concrete,no,1,42
16,50,73,F,100,9658,negative,concrete,no,1,42
17,50,73,F,100,7766,positive,abstract,no,0,42
18,50,73,F,100,13071,negative,abstract,no,1,42
19,50,73,F,100,11547,positive,abstract,no,0,42
20,50,73,F,100,8733,positive,concrete,no,1,42
1,51,24,M,97.5,12924,positive,abstract,no,0,21
2,51,24,M,97.5,15036,negative,abstract,no,1,21
3,51,24,M,97.5,8966,negative,concrete,no,1,21
4,51,24,M,97.5,5297,negative,abstract,no,1,21
5,51,24,M,97.5,6278,negative,concrete,no,1,21
6,51,24,M,97.5,7366,positive,abstract,no,0,21
8,51,24,M,97.5,8494,positive,abstract,no,1,21
9,51,24,M,97.5,5903,negative,abstract,no,1,21
10,51,24,M,97.5,7033,positive,concrete,no,1,21
11,51,24,M,97.5,9211,positive,concrete,no,0,21
12,51,24,M,97.5,5604,positive,concrete,no,1,21
13,51,24,M,97.5,6768,positive,concrete,no,1,21
14,51,24,M,97.5,17822,negative,abstract,no,0,21
15,51,24,M,97.5,6682,negative,concrete,no,0,21
16,51,24,M,97.5,12713,positive,concrete,no,0,21
17,51,24,M,97.5,17842,negative,concrete,no,0,21
18,51,24,M,97.5,9487,negative,concrete,no,1,21
19,51,24,M,97.5,9541,negative,abstract,no,1,21
20,51,24,M,97.5,12488,positive,abstract,no,1,21
1,52,29,M,86.25,9663,negative,abstract,no,0,35
2,52,29,M,86.25,8741,positive,concrete,no,0,35
3,52,29,M,86.25,5148,positive,abstract,no,0,35
4,52,29,M,86.25,4357,positive,concrete,no,1,35
5,52,29,M,86.25,7123,negative,concrete,no,1,35
6,52,29,M,86.25,4764,positive,concrete,no,1,35
7,52,29,M,86.25,5676,positive,abstract,no,0,35
8,52,29,M,86.25,4696,negative,concrete,no,1,35
9,52,29,M,86.25,7423,negative,abstract,no,0,35
10,52,29,M,86.25,7756,positive,abstract,no,0,35
11,52,29,M,86.25,5008,negative,abstract,no,0,35
12,52,29,M,86.25,6480,positive,abstract,no,0,35
13,52,29,M,86.25,9045,negative,concrete,no,1,35
14,52,29,M,86.25,6228,positive,abstract,no,0,35
15,52,29,M,86.25,8446,negative,concrete,no,1,35
16,52,29,M,86.25,6941,negative,concrete,no,1,35
17,52,29,M,86.25,4785,positive,concrete,no,1,35
18,52,29,M,86.25,8609,negative,abstract,no,1,35
19,52,29,M,86.25,4711,positive,concrete,no,1,35
20,52,29,M,86.25,9463,negative,abstract,no,1,35
1,53,27,M,78.75,4724,positive,concrete,no,1,32
2,53,27,M,78.75,2719,positive,abstract,no,0,32
3,53,27,M,78.75,2371,positive,concrete,no,1,32
4,53,27,M,78.75,2819,negative,abstract,no,0,32
5,53,27,M,78.75,3004,positive,concrete,no,1,32
6,53,27,M,78.75,2993,positive,abstract,no,0,32
7,53,27,M,78.75,1951,negative,concrete,no,1,32
8,53,27,M,78.75,2062,negative,concrete,no,1,32
9,53,27,M,78.75,1341,positive,abstract,no,0,32
10,53,27,M,78.75,1392,negative,abstract,no,0,32
11,53,27,M,78.75,2784,positive,abstract,no,0,32
12,53,27,M,78.75,2030,positive,concrete,no,1,32
13,53,27,M,78.75,2256,negative,concrete,no,1,32
14,53,27,M,78.75,1198,positive,concrete,no,1,32
15,53,27,M,78.75,1775,negative,concrete,no,0,32
16,53,27,M,78.75,2415,negative,abstract,no,0,32
17,53,27,M,78.75,1626,negative,abstract,no,0,32
18,53,27,M,78.75,1361,negative,abstract,no,0,32
19,53,27,M,78.75,1326,positive,abstract,no,0,32
20,53,27,M,78.75,2685,negative,concrete,no,1,32
1,54,33,M,86.25,5363,negative,concrete,no,1,39
2,54,33,M,86.25,6975,negative,concrete,no,1,39
3,54,33,M,86.25,4167,negative,concrete,no,1,39
4,54,33,M,86.25,3681,positive,abstract,no,0,39
5,54,33,M,86.25,3485,positive,abstract,no,0,39
6,54,33,M,86.25,5862,positive,concrete,no,1,39
7,54,33,M,86.25,5974,negative,concrete,no,1,39
8,54,33,M,86.25,5929,positive,abstract,no,0,39
9,54,33,M,86.25,3644,positive,concrete,no,1,39
10,54,33,M,86.25,5169,negative,concrete,no,1,39
11,54,33,M,86.25,2637,negative,abstract,no,0,39
12,54,33,M,86.25,6931,negative,abstract,no,0,39
13,54,33,M,86.25,5734,negative,abstract,no,0,39
14,54,33,M,86.25,10156,negative,abstract,no,1,39
15,54,33,M,86.25,3779,positive,abstract,no,0,39
16,54,33,M,86.25,4791,positive,concrete,no,0,39
17,54,33,M,86.25,13485,positive,concrete,no,1,39
18,54,33,M,86.25,3311,positive,concrete,no,1,39
19,54,33,M,86.25,8791,negative,abstract,no,1,39
20,54,33,M,86.25,12181,positive,abstract,no,0,39
1,55,58,F,92.5,4101,negative,abstract,no,0,25
2,55,58,F,92.5,7450,positive,abstract,no,0,25
3,55,58,F,92.5,7249,negative,concrete,no,1,25
4,55,58,F,92.5,5254,negative,abstract,no,1,25
5,55,58,F,92.5,8617,negative,concrete,no,1,25
6,55,58,F,92.5,4367,positive,abstract,no,0,25
7,55,58,F,92.5,7937,positive,concrete,no,1,25
8,55,58,F,92.5,4734,positive,concrete,no,1,25
9,55,58,F,92.5,2852,positive,concrete,no,1,25
10,55,58,F,92.5,4584,positive,concrete,no,1,25
11,55,58,F,92.5,5962,positive,abstract,no,1,25
12,55,58,F,92.5,5558,negative,abstract,no,1,25
13,55,58,F,92.5,14583,negative,concrete,no,1,25
14,55,58,F,92.5,4437,negative,abstract,no,1,25
15,55,58,F,92.5,7183,negative,concrete,no,1,25
16,55,58,F,92.5,7031,negative,concrete,no,1,25
17,55,58,F,92.5,4820,negative,abstract,no,1,25
18,55,58,F,92.5,12498,positive,abstract,no,0,25
19,55,58,F,92.5,12574,positive,abstract,no,0,25
20,55,58,F,92.5,4179,positive,concrete,no,1,25
1,56,39,F,82.5,10453,negative,abstract,no,0,21
2,56,39,F,82.5,10587,positive,concrete,no,1,21
3,56,39,F,82.5,10808,positive,abstract,no,1,21
4,56,39,F,82.5,8395,negative,abstract,no,1,21
5,56,39,F,82.5,11447,negative,concrete,no,1,21
6,56,39,F,82.5,11948,negative,concrete,no,1,21
7,56,39,F,82.5,11821,positive,concrete,no,1,21
8,56,39,F,82.5,16839,negative,concrete,no,1,21
9,56,39,F,82.5,15547,negative,concrete,no,1,21
10,56,39,F,82.5,9298,positive,abstract,no,0,21
11,56,39,F,82.5,10653,negative,abstract,no,1,21
12,56,39,F,82.5,18023,negative,abstract,no,0,21
13,56,39,F,82.5,12363,positive,concrete,no,1,21
15,56,39,F,82.5,6575,positive,concrete,no,1,21
16,56,39,F,82.5,10432,positive,abstract,no,1,21
17,56,39,F,82.5,5575,positive,concrete,no,1,21
18,56,39,F,82.5,10630,negative,abstract,no,0,21
19,56,39,F,82.5,17832,positive,abstract,no,0,21
20,56,39,F,82.5,8482,negative,concrete,no,1,21
1,57,24,M,81.25,15621,positive,abstract,no,0,21
2,57,24,M,81.25,12280,positive,concrete,no,1,21
3,57,24,M,81.25,13003,negative,concrete,no,1,21
4,57,24,M,81.25,11487,negative,concrete,no,1,21
5,57,24,M,81.25,17291,positive,abstract,no,0,21
6,57,24,M,81.25,16010,negative,abstract,no,0,21
8,57,24,M,81.25,15200,negative,abstract,no,0,21
9,57,24,M,81.25,10813,positive,concrete,no,1,21
10,57,24,M,81.25,18006,negative,abstract,no,1,21
11,57,24,M,81.25,10912,positive,concrete,no,1,21
12,57,24,M,81.25,11456,negative,abstract,no,0,21
13,57,24,M,81.25,13962,positive,abstract,no,0,21
14,57,24,M,81.25,11576,positive,concrete,no,1,21
15,57,24,M,81.25,10566,negative,abstract,no,1,21
16,57,24,M,81.25,15230,negative,concrete,no,1,21
17,57,24,M,81.25,9949,negative,concrete,no,1,21
18,57,24,M,81.25,10907,positive,concrete,no,1,21
20,57,24,M,81.25,14002,negative,concrete,no,0,21
1,58,26,M,86.25,7475,negative,concrete,no,1,31
2,58,26,M,86.25,8090,negative,abstract,no,1,31
3,58,26,M,86.25,12857,positive,concrete,no,0,31
4,58,26,M,86.25,7065,positive,abstract,no,0,31
5,58,26,M,86.25,4000,negative,abstract,no,0,31
6,58,26,M,86.25,6270,positive,concrete,no,1,31
7,58,26,M,86.25,4550,positive,concrete,no,1,31
8,58,26,M,86.25,11194,negative,abstract,no,1,31
9,58,26,M,86.25,6828,negative,concrete,no,1,31
10,58,26,M,86.25,10598,negative,concrete,no,1,31
11,58,26,M,86.25,8979,positive,abstract,no,0,31
12,58,26,M,86.25,10849,negative,abstract,no,1,31
13,58,26,M,86.25,7479,positive,concrete,no,1,31
14,58,26,M,86.25,6801,negative,concrete,no,1,31
15,58,26,M,86.25,8603,positive,abstract,no,0,31
16,58,26,M,86.25,6722,positive,concrete,no,1,31
17,58,26,M,86.25,9849,negative,concrete,no,1,31
18,58,26,M,86.25,5351,negative,abstract,no,1,31
19,58,26,M,86.25,12237,positive,abstract,no,1,31
20,58,26,M,86.25,11946,positive,abstract,no,1,31
1,59,41,F,100,4198,negative,concrete,no,1,41
2,59,41,F,100,8209,negative,abstract,no,1,41
3,59,41,F,100,7051,positive,concrete,no,1,41
4,59,41,F,100,9382,negative,concrete,no,1,41
5,59,41,F,100,7620,positive,concrete,no,1,41
6,59,41,F,100,14977,positive,abstract,no,0,41
7,59,41,F,100,7974,negative,concrete,no,1,41
8,59,41,F,100,11297,negative,abstract,no,1,41
9,59,41,F,100,10803,positive,concrete,no,1,41
10,59,41,F,100,11970,negative,concrete,no,1,41
11,59,41,F,100,7289,negative,abstract,no,1,41
12,59,41,F,100,10685,positive,abstract,no,0,41
13,59,41,F,100,7272,positive,concrete,no,1,41
14,59,41,F,100,11151,negative,abstract,no,1,41
15,59,41,F,100,13463,positive,abstract,no,0,41
16,59,41,F,100,9316,positive,concrete,no,1,41
17,59,41,F,100,11603,positive,abstract,no,0,41
18,59,41,F,100,10196,positive,abstract,no,1,41
19,59,41,F,100,11759,negative,concrete,no,1,41
20,59,41,F,100,8945,negative,abstract,no,1,41
1,60,62,F,97.5,11183,negative,concrete,no,1,31
2,60,62,F,97.5,12825,negative,concrete,no,1,31
3,60,62,F,97.5,13899,positive,concrete,no,1,31
4,60,62,F,97.5,13031,positive,concrete,no,1,31
5,60,62,F,97.5,11032,positive,abstract,no,1,31
7,60,62,F,97.5,8947,negative,concrete,no,0,31
8,60,62,F,97.5,12550,negative,concrete,no,1,31
9,60,62,F,97.5,15479,positive,concrete,no,1,31
10,60,62,F,97.5,12883,positive,abstract,no,0,31
11,60,62,F,97.5,10524,negative,abstract,no,0,31
12,60,62,F,97.5,8901,positive,concrete,no,1,31
13,60,62,F,97.5,9618,positive,concrete,no,1,31
14,60,62,F,97.5,11800,positive,abstract,no,0,31
15,60,62,F,97.5,11633,negative,abstract,no,1,31
16,60,62,F,97.5,10823,negative,abstract,no,1,31
17,60,62,F,97.5,9928,negative,abstract,no,1,31
18,60,62,F,97.5,12135,positive,abstract,no,0,31
19,60,62,F,97.5,12909,positive,abstract,no,0,31
20,60,62,F,97.5,11620,negative,abstract,no,1,31
2,61,59,F,87.5,16641,negative,abstract,no,1,38
4,61,59,F,87.5,10481,positive,abstract,no,0,38
5,61,59,F,87.5,9351,negative,concrete,no,1,38
6,61,59,F,87.5,11677,positive,abstract,no,0,38
7,61,59,F,87.5,8049,negative,abstract,no,1,38
8,61,59,F,87.5,11530,negative,abstract,no,1,38
9,61,59,F,87.5,8885,positive,concrete,no,1,38
10,61,59,F,87.5,8700,positive,concrete,no,1,38
11,61,59,F,87.5,9370,negative,concrete,no,1,38
12,61,59,F,87.5,10912,positive,abstract,no,1,38
13,61,59,F,87.5,11384,negative,concrete,no,1,38
14,61,59,F,87.5,8919,positive,concrete,no,1,38
15,61,59,F,87.5,10066,negative,abstract,no,1,38
16,61,59,F,87.5,10971,positive,abstract,no,1,38
17,61,59,F,87.5,9612,negative,concrete,no,1,38
18,61,59,F,87.5,7146,positive,concrete,no,1,38
19,61,59,F,87.5,15204,positive,abstract,no,0,38
20,61,59,F,87.5,11061,negative,concrete,no,1,38
